KL 1.1 1
2/14/2023 6:45 AM
Wavelength (nm)	10mm Absorbance
//WLCalib: Shift 	0.30333	
//WLCalib: 261S 	0.17000	
//WLCalib: 362S 	-0.17000	
//WLCalib: 484S 	-0.22000	
//WLCalib: 529S 	0.26000	
//WLCalib: 823S 	-0.40000	
//QSpecEnd: 
220.0	0.365
220.5	0.348
221.0	0.330
221.5	0.314
222.0	0.298
222.5	0.282
223.0	0.267
223.5	0.252
224.0	0.239
224.5	0.227
225.0	0.217
225.5	0.207
226.0	0.200
226.5	0.194
227.0	0.191
227.5	0.187
228.0	0.186
228.5	0.183
229.0	0.181
229.5	0.179
230.0	0.178
230.5	0.177
231.0	0.176
231.5	0.176
232.0	0.175
232.5	0.173
233.0	0.174
233.5	0.174
234.0	0.174
234.5	0.175
235.0	0.177
235.5	0.179
236.0	0.183
236.5	0.187
237.0	0.192
237.5	0.198
238.0	0.206
238.5	0.214
239.0	0.221
239.5	0.230
240.0	0.239
240.5	0.246
241.0	0.253
241.5	0.260
242.0	0.268
242.5	0.277
243.0	0.285
243.5	0.293
244.0	0.301
244.5	0.310
245.0	0.319
245.5	0.327
246.0	0.336
246.5	0.343
247.0	0.351
247.5	0.358
248.0	0.366
248.5	0.374
249.0	0.381
249.5	0.386
250.0	0.392
250.5	0.399
251.0	0.405
251.5	0.412
252.0	0.420
252.5	0.426
253.0	0.432
253.5	0.434
254.0	0.440
254.5	0.444
255.0	0.448
255.5	0.451
256.0	0.454
256.5	0.456
257.0	0.456
257.5	0.457
258.0	0.456
258.5	0.456
259.0	0.456
259.5	0.454
260.0	0.452
260.5	0.450
261.0	0.448
261.5	0.446
262.0	0.442
262.5	0.440
263.0	0.436
263.5	0.430
264.0	0.424
264.5	0.420
265.0	0.413
265.5	0.405
266.0	0.397
266.5	0.388
267.0	0.380
267.5	0.373
268.0	0.367
268.5	0.361
269.0	0.354
269.5	0.347
270.0	0.341
270.5	0.333
271.0	0.328
271.5	0.321
272.0	0.311
272.5	0.303
273.0	0.297
273.5	0.289
274.0	0.282
274.5	0.275
275.0	0.267
275.5	0.259
276.0	0.252
276.5	0.243
277.0	0.235
277.5	0.226
278.0	0.217
278.5	0.209
279.0	0.201
279.5	0.195
280.0	0.187
280.5	0.178
281.0	0.171
281.5	0.163
282.0	0.157
282.5	0.151
283.0	0.145
283.5	0.138
284.0	0.132
284.5	0.126
285.0	0.121
285.5	0.116
286.0	0.110
286.5	0.104
287.0	0.097
287.5	0.091
288.0	0.087
288.5	0.082
289.0	0.078
289.5	0.074
290.0	0.069
290.5	0.063
291.0	0.059
291.5	0.054
292.0	0.050
292.5	0.047
293.0	0.045
293.5	0.041
294.0	0.039
294.5	0.037
295.0	0.036
295.5	0.034
296.0	0.032
296.5	0.030
297.0	0.029
297.5	0.029
298.0	0.028
298.5	0.026
299.0	0.024
299.5	0.023
300.0	0.020
300.5	0.019
301.0	0.018
301.5	0.017
302.0	0.015
302.5	0.012
303.0	0.011
303.5	0.010
304.0	0.008
304.5	0.007
305.0	0.004
305.5	0.003
306.0	0.004
306.5	0.005
307.0	0.005
307.5	0.004
308.0	0.004
308.5	0.004
309.0	0.004
309.5	0.005
310.0	0.006
310.5	0.006
311.0	0.007
311.5	0.008
312.0	0.008
312.5	0.008
313.0	0.009
313.5	0.009
314.0	0.007
314.5	0.007
315.0	0.006
315.5	0.007
316.0	0.007
316.5	0.007
317.0	0.007
317.5	0.006
318.0	0.005
318.5	0.004
319.0	0.004
319.5	0.004
320.0	0.004
320.5	0.003
321.0	0.004
321.5	0.004
322.0	0.005
322.5	0.006
323.0	0.006
323.5	0.006
324.0	0.005
324.5	0.005
325.0	0.005
325.5	0.005
326.0	0.005
326.5	0.004
327.0	0.003
327.5	0.003
328.0	0.002
328.5	0.003
329.0	0.003
329.5	0.003
330.0	0.003
330.5	0.003
331.0	0.004
331.5	0.003
332.0	0.003
332.5	0.004
333.0	0.004
333.5	0.004
334.0	0.005
334.5	0.006
335.0	0.005
335.5	0.006
336.0	0.006
336.5	0.005
337.0	0.003
337.5	0.001
338.0	0.001
338.5	-0.002
339.0	-0.001
339.5	0.000
340.0	0.000
340.5	0.000
341.0	-0.001
341.5	-0.001
342.0	-0.001
342.5	0.000
343.0	0.000
343.5	0.001
344.0	0.002
344.5	0.001
345.0	0.002
345.5	0.002
346.0	0.003
346.5	0.002
347.0	0.003
347.5	0.002
348.0	0.002
348.5	0.003
349.0	0.003
349.5	0.002
350.0	0.002


KL 1.1 2
2/14/2023 6:45 AM
Wavelength (nm)	10mm Absorbance
//WLCalib: Shift 	0.30333	
//WLCalib: 261S 	0.17000	
//WLCalib: 362S 	-0.17000	
//WLCalib: 484S 	-0.22000	
//WLCalib: 529S 	0.26000	
//WLCalib: 823S 	-0.40000	
//QSpecEnd: 
220.0	0.314
220.5	0.300
221.0	0.286
221.5	0.275
222.0	0.261
222.5	0.246
223.0	0.233
223.5	0.220
224.0	0.207
224.5	0.194
225.0	0.182
225.5	0.176
226.0	0.170
226.5	0.166
227.0	0.163
227.5	0.160
228.0	0.158
228.5	0.157
229.0	0.155
229.5	0.153
230.0	0.154
230.5	0.154
231.0	0.153
231.5	0.154
232.0	0.154
232.5	0.156
233.0	0.158
233.5	0.159
234.0	0.160
234.5	0.162
235.0	0.166
235.5	0.168
236.0	0.173
236.5	0.177
237.0	0.184
237.5	0.190
238.0	0.197
238.5	0.205
239.0	0.213
239.5	0.221
240.0	0.230
240.5	0.238
241.0	0.246
241.5	0.253
242.0	0.261
242.5	0.270
243.0	0.279
243.5	0.287
244.0	0.295
244.5	0.304
245.0	0.312
245.5	0.320
246.0	0.329
246.5	0.337
247.0	0.346
247.5	0.353
248.0	0.360
248.5	0.368
249.0	0.375
249.5	0.381
250.0	0.387
250.5	0.393
251.0	0.400
251.5	0.408
252.0	0.414
252.5	0.422
253.0	0.428
253.5	0.433
254.0	0.439
254.5	0.444
255.0	0.448
255.5	0.452
256.0	0.455
256.5	0.456
257.0	0.456
257.5	0.456
258.0	0.455
258.5	0.456
259.0	0.455
259.5	0.454
260.0	0.452
260.5	0.451
261.0	0.449
261.5	0.446
262.0	0.442
262.5	0.439
263.0	0.435
263.5	0.431
264.0	0.426
264.5	0.422
265.0	0.415
265.5	0.408
266.0	0.399
266.5	0.391
267.0	0.382
267.5	0.374
268.0	0.368
268.5	0.361
269.0	0.354
269.5	0.347
270.0	0.341
270.5	0.332
271.0	0.325
271.5	0.317
272.0	0.308
272.5	0.300
273.0	0.294
273.5	0.287
274.0	0.278
274.5	0.273
275.0	0.267
275.5	0.259
276.0	0.251
276.5	0.242
277.0	0.233
277.5	0.224
278.0	0.217
278.5	0.209
279.0	0.202
279.5	0.195
280.0	0.188
280.5	0.180
281.0	0.172
281.5	0.166
282.0	0.158
282.5	0.151
283.0	0.144
283.5	0.137
284.0	0.132
284.5	0.127
285.0	0.122
285.5	0.116
286.0	0.109
286.5	0.103
287.0	0.097
287.5	0.091
288.0	0.086
288.5	0.081
289.0	0.077
289.5	0.073
290.0	0.068
290.5	0.064
291.0	0.060
291.5	0.054
292.0	0.051
292.5	0.048
293.0	0.044
293.5	0.041
294.0	0.038
294.5	0.037
295.0	0.035
295.5	0.033
296.0	0.031
296.5	0.029
297.0	0.027
297.5	0.027
298.0	0.027
298.5	0.025
299.0	0.024
299.5	0.022
300.0	0.019
300.5	0.018
301.0	0.017
301.5	0.016
302.0	0.014
302.5	0.012
303.0	0.011
303.5	0.009
304.0	0.007
304.5	0.004
305.0	0.002
305.5	0.001
306.0	0.000
306.5	0.002
307.0	0.001
307.5	0.001
308.0	0.001
308.5	0.001
309.0	0.001
309.5	0.002
310.0	0.003
310.5	0.002
311.0	0.003
311.5	0.004
312.0	0.006
312.5	0.006
313.0	0.007
313.5	0.006
314.0	0.005
314.5	0.005
315.0	0.005
315.5	0.006
316.0	0.006
316.5	0.005
317.0	0.005
317.5	0.004
318.0	0.003
318.5	0.002
319.0	0.003
319.5	0.002
320.0	0.002
320.5	0.001
321.0	0.002
321.5	0.002
322.0	0.003
322.5	0.004
323.0	0.004
323.5	0.004
324.0	0.004
324.5	0.005
325.0	0.005
325.5	0.005
326.0	0.006
326.5	0.005
327.0	0.005
327.5	0.004
328.0	0.004
328.5	0.004
329.0	0.004
329.5	0.003
330.0	0.003
330.5	0.001
331.0	0.000
331.5	-0.001
332.0	-0.002
332.5	-0.002
333.0	-0.002
333.5	-0.001
334.0	-0.001
334.5	0.000
335.0	0.000
335.5	0.001
336.0	0.001
336.5	-0.001
337.0	-0.001
337.5	-0.001
338.0	-0.001
338.5	-0.002
339.0	0.000
339.5	0.000
340.0	0.000
340.5	-0.002
341.0	-0.002
341.5	-0.002
342.0	-0.003
342.5	-0.003
343.0	-0.002
343.5	-0.003
344.0	-0.002
344.5	-0.003
345.0	-0.002
345.5	-0.003
346.0	-0.002
346.5	-0.003
347.0	-0.003
347.5	-0.003
348.0	-0.004
348.5	-0.004
349.0	-0.005
349.5	-0.005
350.0	-0.006


KL 1.1 3
2/14/2023 6:46 AM
Wavelength (nm)	10mm Absorbance
//WLCalib: Shift 	0.30333	
//WLCalib: 261S 	0.17000	
//WLCalib: 362S 	-0.17000	
//WLCalib: 484S 	-0.22000	
//WLCalib: 529S 	0.26000	
//WLCalib: 823S 	-0.40000	
//QSpecEnd: 
220.0	0.292
220.5	0.280
221.0	0.263
221.5	0.252
222.0	0.236
222.5	0.223
223.0	0.211
223.5	0.200
224.0	0.189
224.5	0.180
225.0	0.172
225.5	0.168
226.0	0.161
226.5	0.157
227.0	0.155
227.5	0.154
228.0	0.151
228.5	0.149
229.0	0.148
229.5	0.147
230.0	0.147
230.5	0.146
231.0	0.146
231.5	0.147
232.0	0.148
232.5	0.148
233.0	0.149
233.5	0.151
234.0	0.152
234.5	0.153
235.0	0.156
235.5	0.159
236.0	0.164
236.5	0.168
237.0	0.174
237.5	0.181
238.0	0.190
238.5	0.198
239.0	0.205
239.5	0.214
240.0	0.223
240.5	0.231
241.0	0.237
241.5	0.244
242.0	0.252
242.5	0.261
243.0	0.270
243.5	0.280
244.0	0.289
244.5	0.298
245.0	0.307
245.5	0.315
246.0	0.323
246.5	0.332
247.0	0.340
247.5	0.347
248.0	0.354
248.5	0.363
249.0	0.371
249.5	0.377
250.0	0.383
250.5	0.390
251.0	0.396
251.5	0.402
252.0	0.409
252.5	0.414
253.0	0.421
253.5	0.425
254.0	0.429
254.5	0.432
255.0	0.436
255.5	0.439
256.0	0.444
256.5	0.446
257.0	0.447
257.5	0.449
258.0	0.449
258.5	0.449
259.0	0.449
259.5	0.448
260.0	0.446
260.5	0.444
261.0	0.443
261.5	0.442
262.0	0.439
262.5	0.436
263.0	0.433
263.5	0.428
264.0	0.421
264.5	0.416
265.0	0.408
265.5	0.399
266.0	0.391
266.5	0.384
267.0	0.375
267.5	0.368
268.0	0.361
268.5	0.354
269.0	0.347
269.5	0.340
270.0	0.335
270.5	0.328
271.0	0.321
271.5	0.313
272.0	0.304
272.5	0.295
273.0	0.289
273.5	0.282
274.0	0.273
274.5	0.266
275.0	0.260
275.5	0.251
276.0	0.243
276.5	0.233
277.0	0.226
277.5	0.216
278.0	0.207
278.5	0.200
279.0	0.191
279.5	0.186
280.0	0.179
280.5	0.171
281.0	0.164
281.5	0.157
282.0	0.150
282.5	0.144
283.0	0.138
283.5	0.131
284.0	0.126
284.5	0.120
285.0	0.114
285.5	0.109
286.0	0.102
286.5	0.097
287.0	0.090
287.5	0.084
288.0	0.079
288.5	0.074
289.0	0.070
289.5	0.066
290.0	0.060
290.5	0.055
291.0	0.050
291.5	0.047
292.0	0.043
292.5	0.041
293.0	0.038
293.5	0.035
294.0	0.033
294.5	0.030
295.0	0.028
295.5	0.026
296.0	0.024
296.5	0.021
297.0	0.020
297.5	0.019
298.0	0.018
298.5	0.017
299.0	0.015
299.5	0.012
300.0	0.009
300.5	0.009
301.0	0.008
301.5	0.006
302.0	0.005
302.5	0.004
303.0	0.003
303.5	0.002
304.0	0.001
304.5	0.000
305.0	-0.003
305.5	-0.004
306.0	-0.004
306.5	-0.002
307.0	-0.001
307.5	0.000
308.0	-0.001
308.5	-0.001
309.0	-0.001
309.5	0.000
310.0	0.000
310.5	0.001
311.0	0.001
311.5	0.002
312.0	0.003
312.5	0.005
313.0	0.006
313.5	0.005
314.0	0.004
314.5	0.003
315.0	0.002
315.5	0.003
316.0	0.004
316.5	0.004
317.0	0.004
317.5	0.003
318.0	0.002
318.5	0.002
319.0	0.002
319.5	0.002
320.0	0.003
320.5	0.002
321.0	0.003
321.5	0.003
322.0	0.004
322.5	0.005
323.0	0.005
323.5	0.006
324.0	0.005
324.5	0.005
325.0	0.006
325.5	0.006
326.0	0.006
326.5	0.005
327.0	0.005
327.5	0.003
328.0	0.002
328.5	0.002
329.0	0.001
329.5	0.000
330.0	0.000
330.5	0.000
331.0	-0.001
331.5	-0.002
332.0	-0.003
332.5	-0.003
333.0	-0.003
333.5	-0.003
334.0	-0.002
334.5	-0.001
335.0	-0.001
335.5	0.000
336.0	0.001
336.5	0.001
337.0	0.002
337.5	0.000
338.0	0.000
338.5	-0.002
339.0	0.000
339.5	0.000
340.0	0.000
340.5	-0.001
341.0	-0.001
341.5	-0.001
342.0	0.000
342.5	0.000
343.0	0.000
343.5	0.000
344.0	0.000
344.5	-0.001
345.0	-0.001
345.5	-0.001
346.0	-0.001
346.5	-0.001
347.0	0.000
347.5	0.000
348.0	-0.001
348.5	0.000
349.0	-0.001
349.5	-0.003
350.0	-0.004


KL 1.2 1
2/14/2023 6:47 AM
Wavelength (nm)	10mm Absorbance
//WLCalib: Shift 	0.30333	
//WLCalib: 261S 	0.17000	
//WLCalib: 362S 	-0.17000	
//WLCalib: 484S 	-0.22000	
//WLCalib: 529S 	0.26000	
//WLCalib: 823S 	-0.40000	
//QSpecEnd: 
220.0	0.307
220.5	0.296
221.0	0.282
221.5	0.270
222.0	0.258
222.5	0.246
223.0	0.235
223.5	0.225
224.0	0.216
224.5	0.209
225.0	0.202
225.5	0.198
226.0	0.194
226.5	0.191
227.0	0.189
227.5	0.189
228.0	0.187
228.5	0.186
229.0	0.186
229.5	0.186
230.0	0.185
230.5	0.186
231.0	0.186
231.5	0.186
232.0	0.187
232.5	0.188
233.0	0.189
233.5	0.191
234.0	0.194
234.5	0.197
235.0	0.202
235.5	0.207
236.0	0.213
236.5	0.220
237.0	0.227
237.5	0.237
238.0	0.248
238.5	0.259
239.0	0.271
239.5	0.284
240.0	0.295
240.5	0.305
241.0	0.315
241.5	0.324
242.0	0.334
242.5	0.344
243.0	0.356
243.5	0.367
244.0	0.378
244.5	0.390
245.0	0.401
245.5	0.410
246.0	0.420
246.5	0.430
247.0	0.440
247.5	0.449
248.0	0.458
248.5	0.467
249.0	0.477
249.5	0.485
250.0	0.491
250.5	0.499
251.0	0.506
251.5	0.514
252.0	0.521
252.5	0.529
253.0	0.536
253.5	0.541
254.0	0.548
254.5	0.553
255.0	0.558
255.5	0.564
256.0	0.571
256.5	0.575
257.0	0.577
257.5	0.581
258.0	0.583
258.5	0.584
259.0	0.586
259.5	0.586
260.0	0.585
260.5	0.585
261.0	0.584
261.5	0.582
262.0	0.580
262.5	0.578
263.0	0.575
263.5	0.571
264.0	0.565
264.5	0.561
265.0	0.553
265.5	0.544
266.0	0.535
266.5	0.526
267.0	0.517
267.5	0.509
268.0	0.501
268.5	0.494
269.0	0.485
269.5	0.477
270.0	0.470
270.5	0.460
271.0	0.451
271.5	0.441
272.0	0.430
272.5	0.420
273.0	0.411
273.5	0.400
274.0	0.389
274.5	0.380
275.0	0.371
275.5	0.359
276.0	0.347
276.5	0.332
277.0	0.320
277.5	0.307
278.0	0.296
278.5	0.285
279.0	0.273
279.5	0.263
280.0	0.253
280.5	0.242
281.0	0.231
281.5	0.221
282.0	0.212
282.5	0.203
283.0	0.194
283.5	0.186
284.0	0.179
284.5	0.171
285.0	0.164
285.5	0.156
286.0	0.148
286.5	0.140
287.0	0.132
287.5	0.124
288.0	0.118
288.5	0.113
289.0	0.108
289.5	0.103
290.0	0.095
290.5	0.089
291.0	0.082
291.5	0.076
292.0	0.072
292.5	0.068
293.0	0.063
293.5	0.060
294.0	0.056
294.5	0.052
295.0	0.050
295.5	0.046
296.0	0.042
296.5	0.040
297.0	0.037
297.5	0.035
298.0	0.034
298.5	0.032
299.0	0.029
299.5	0.026
300.0	0.024
300.5	0.022
301.0	0.021
301.5	0.019
302.0	0.017
302.5	0.015
303.0	0.014
303.5	0.013
304.0	0.010
304.5	0.009
305.0	0.007
305.5	0.006
306.0	0.006
306.5	0.007
307.0	0.007
307.5	0.007
308.0	0.007
308.5	0.007
309.0	0.008
309.5	0.009
310.0	0.009
310.5	0.009
311.0	0.009
311.5	0.010
312.0	0.012
312.5	0.012
313.0	0.013
313.5	0.011
314.0	0.010
314.5	0.010
315.0	0.009
315.5	0.009
316.0	0.008
316.5	0.009
317.0	0.008
317.5	0.008
318.0	0.007
318.5	0.006
319.0	0.006
319.5	0.004
320.0	0.004
320.5	0.003
321.0	0.005
321.5	0.005
322.0	0.006
322.5	0.007
323.0	0.006
323.5	0.007
324.0	0.006
324.5	0.005
325.0	0.005
325.5	0.004
326.0	0.005
326.5	0.003
327.0	0.003
327.5	0.002
328.0	0.002
328.5	0.002
329.0	0.001
329.5	0.000
330.0	-0.001
330.5	-0.001
331.0	-0.001
331.5	-0.002
332.0	-0.003
332.5	-0.002
333.0	-0.002
333.5	-0.002
334.0	-0.002
334.5	0.000
335.0	-0.001
335.5	-0.001
336.0	-0.001
336.5	-0.001
337.0	-0.001
337.5	-0.002
338.0	-0.001
338.5	-0.001
339.0	-0.001
339.5	0.001
340.0	0.000
340.5	-0.001
341.0	-0.001
341.5	0.000
342.0	0.000
342.5	0.001
343.0	0.002
343.5	0.002
344.0	0.003
344.5	0.001
345.0	0.001
345.5	0.001
346.0	0.002
346.5	0.001
347.0	0.001
347.5	0.001
348.0	0.002
348.5	0.002
349.0	0.001
349.5	-0.001
350.0	-0.001


KL 1.2 2
2/14/2023 6:47 AM
Wavelength (nm)	10mm Absorbance
//WLCalib: Shift 	0.30333	
//WLCalib: 261S 	0.17000	
//WLCalib: 362S 	-0.17000	
//WLCalib: 484S 	-0.22000	
//WLCalib: 529S 	0.26000	
//WLCalib: 823S 	-0.40000	
//QSpecEnd: 
220.0	0.310
220.5	0.298
221.0	0.286
221.5	0.277
222.0	0.264
222.5	0.253
223.0	0.242
223.5	0.232
224.0	0.220
224.5	0.208
225.0	0.200
225.5	0.193
226.0	0.184
226.5	0.181
227.0	0.178
227.5	0.176
228.0	0.175
228.5	0.174
229.0	0.172
229.5	0.172
230.0	0.172
230.5	0.172
231.0	0.173
231.5	0.174
232.0	0.177
232.5	0.179
233.0	0.182
233.5	0.187
234.0	0.191
234.5	0.197
235.0	0.204
235.5	0.209
236.0	0.218
236.5	0.224
237.0	0.232
237.5	0.242
238.0	0.252
238.5	0.262
239.0	0.272
239.5	0.282
240.0	0.292
240.5	0.301
241.0	0.310
241.5	0.319
242.0	0.328
242.5	0.337
243.0	0.348
243.5	0.357
244.0	0.367
244.5	0.379
245.0	0.388
245.5	0.398
246.0	0.409
246.5	0.421
247.0	0.431
247.5	0.441
248.0	0.452
248.5	0.461
249.0	0.471
249.5	0.478
250.0	0.486
250.5	0.495
251.0	0.504
251.5	0.515
252.0	0.525
252.5	0.535
253.0	0.544
253.5	0.550
254.0	0.556
254.5	0.561
255.0	0.568
255.5	0.572
256.0	0.577
256.5	0.580
257.0	0.581
257.5	0.582
258.0	0.583
258.5	0.584
259.0	0.585
259.5	0.584
260.0	0.582
260.5	0.581
261.0	0.580
261.5	0.578
262.0	0.575
262.5	0.572
263.0	0.569
263.5	0.565
264.0	0.558
264.5	0.554
265.0	0.548
265.5	0.540
266.0	0.530
266.5	0.520
267.0	0.511
267.5	0.503
268.0	0.493
268.5	0.484
269.0	0.475
269.5	0.467
270.0	0.459
270.5	0.450
271.0	0.442
271.5	0.433
272.0	0.423
272.5	0.413
273.0	0.404
273.5	0.395
274.0	0.383
274.5	0.373
275.0	0.363
275.5	0.351
276.0	0.340
276.5	0.327
277.0	0.315
277.5	0.301
278.0	0.289
278.5	0.276
279.0	0.264
279.5	0.254
280.0	0.243
280.5	0.232
281.0	0.222
281.5	0.213
282.0	0.204
282.5	0.195
283.0	0.186
283.5	0.177
284.0	0.169
284.5	0.161
285.0	0.155
285.5	0.148
286.0	0.140
286.5	0.134
287.0	0.126
287.5	0.118
288.0	0.111
288.5	0.104
289.0	0.098
289.5	0.092
290.0	0.086
290.5	0.079
291.0	0.072
291.5	0.067
292.0	0.062
292.5	0.056
293.0	0.051
293.5	0.046
294.0	0.042
294.5	0.038
295.0	0.035
295.5	0.032
296.0	0.030
296.5	0.027
297.0	0.025
297.5	0.024
298.0	0.023
298.5	0.022
299.0	0.020
299.5	0.018
300.0	0.016
300.5	0.015
301.0	0.014
301.5	0.013
302.0	0.013
302.5	0.013
303.0	0.012
303.5	0.011
304.0	0.009
304.5	0.008
305.0	0.007
305.5	0.005
306.0	0.004
306.5	0.005
307.0	0.005
307.5	0.005
308.0	0.005
308.5	0.004
309.0	0.003
309.5	0.004
310.0	0.004
310.5	0.003
311.0	0.004
311.5	0.004
312.0	0.003
312.5	0.004
313.0	0.005
313.5	0.005
314.0	0.004
314.5	0.004
315.0	0.004
315.5	0.005
316.0	0.006
316.5	0.007
317.0	0.007
317.5	0.007
318.0	0.006
318.5	0.006
319.0	0.007
319.5	0.007
320.0	0.007
320.5	0.006
321.0	0.007
321.5	0.007
322.0	0.007
322.5	0.007
323.0	0.007
323.5	0.006
324.0	0.006
324.5	0.005
325.0	0.005
325.5	0.005
326.0	0.005
326.5	0.003
327.0	0.003
327.5	0.003
328.0	0.003
328.5	0.004
329.0	0.004
329.5	0.003
330.0	0.003
330.5	0.003
331.0	0.003
331.5	0.001
332.0	0.001
332.5	0.001
333.0	0.001
333.5	0.002
334.0	0.002
334.5	0.004
335.0	0.003
335.5	0.003
336.0	0.001
336.5	0.001
337.0	0.001
337.5	0.000
338.0	0.000
338.5	-0.001
339.0	0.001
339.5	0.001
340.0	0.000
340.5	-0.001
341.0	-0.001
341.5	-0.002
342.0	-0.003
342.5	-0.003
343.0	-0.002
343.5	-0.002
344.0	-0.002
344.5	-0.002
345.0	-0.002
345.5	-0.003
346.0	-0.002
346.5	-0.003
347.0	-0.002
347.5	-0.003
348.0	-0.003
348.5	-0.003
349.0	-0.003
349.5	-0.004
350.0	-0.004


KL 1.2 3
2/14/2023 6:47 AM
Wavelength (nm)	10mm Absorbance
//WLCalib: Shift 	0.30333	
//WLCalib: 261S 	0.17000	
//WLCalib: 362S 	-0.17000	
//WLCalib: 484S 	-0.22000	
//WLCalib: 529S 	0.26000	
//WLCalib: 823S 	-0.40000	
//QSpecEnd: 
220.0	0.317
220.5	0.305
221.0	0.291
221.5	0.279
222.0	0.266
222.5	0.253
223.0	0.242
223.5	0.232
224.0	0.219
224.5	0.208
225.0	0.198
225.5	0.190
226.0	0.183
226.5	0.179
227.0	0.175
227.5	0.173
228.0	0.172
228.5	0.171
229.0	0.171
229.5	0.171
230.0	0.171
230.5	0.172
231.0	0.173
231.5	0.175
232.0	0.177
232.5	0.179
233.0	0.184
233.5	0.189
234.0	0.193
234.5	0.199
235.0	0.205
235.5	0.211
236.0	0.219
236.5	0.225
237.0	0.233
237.5	0.242
238.0	0.252
238.5	0.262
239.0	0.272
239.5	0.281
240.0	0.292
240.5	0.301
241.0	0.309
241.5	0.319
242.0	0.329
242.5	0.339
243.0	0.350
243.5	0.359
244.0	0.370
244.5	0.380
245.0	0.390
245.5	0.400
246.0	0.411
246.5	0.421
247.0	0.432
247.5	0.442
248.0	0.452
248.5	0.462
249.0	0.470
249.5	0.478
250.0	0.486
250.5	0.495
251.0	0.504
251.5	0.514
252.0	0.525
252.5	0.534
253.0	0.544
253.5	0.552
254.0	0.560
254.5	0.567
255.0	0.573
255.5	0.577
256.0	0.582
256.5	0.585
257.0	0.584
257.5	0.586
258.0	0.586
258.5	0.586
259.0	0.587
259.5	0.585
260.0	0.584
260.5	0.583
261.0	0.581
261.5	0.579
262.0	0.575
262.5	0.572
263.0	0.570
263.5	0.565
264.0	0.560
264.5	0.557
265.0	0.551
265.5	0.543
266.0	0.536
266.5	0.528
267.0	0.520
267.5	0.510
268.0	0.498
268.5	0.489
269.0	0.480
269.5	0.471
270.0	0.463
270.5	0.453
271.0	0.444
271.5	0.435
272.0	0.424
272.5	0.413
273.0	0.404
273.5	0.393
274.0	0.382
274.5	0.373
275.0	0.363
275.5	0.353
276.0	0.343
276.5	0.330
277.0	0.319
277.5	0.304
278.0	0.292
278.5	0.280
279.0	0.267
279.5	0.256
280.0	0.245
280.5	0.234
281.0	0.224
281.5	0.214
282.0	0.206
282.5	0.196
283.0	0.187
283.5	0.177
284.0	0.168
284.5	0.161
285.0	0.156
285.5	0.149
286.0	0.141
286.5	0.135
287.0	0.127
287.5	0.119
288.0	0.112
288.5	0.105
289.0	0.100
289.5	0.094
290.0	0.087
290.5	0.080
291.0	0.074
291.5	0.069
292.0	0.063
292.5	0.057
293.0	0.051
293.5	0.046
294.0	0.040
294.5	0.037
295.0	0.035
295.5	0.032
296.0	0.030
296.5	0.027
297.0	0.024
297.5	0.022
298.0	0.021
298.5	0.019
299.0	0.018
299.5	0.017
300.0	0.015
300.5	0.015
301.0	0.014
301.5	0.015
302.0	0.014
302.5	0.014
303.0	0.012
303.5	0.011
304.0	0.009
304.5	0.009
305.0	0.007
305.5	0.006
306.0	0.006
306.5	0.006
307.0	0.005
307.5	0.005
308.0	0.004
308.5	0.004
309.0	0.004
309.5	0.004
310.0	0.004
310.5	0.003
311.0	0.004
311.5	0.004
312.0	0.004
312.5	0.003
313.0	0.004
313.5	0.004
314.0	0.004
314.5	0.004
315.0	0.004
315.5	0.004
316.0	0.004
316.5	0.004
317.0	0.004
317.5	0.003
318.0	0.003
318.5	0.003
319.0	0.004
319.5	0.004
320.0	0.006
320.5	0.005
321.0	0.005
321.5	0.005
322.0	0.004
322.5	0.005
323.0	0.006
323.5	0.006
324.0	0.005
324.5	0.005
325.0	0.005
325.5	0.004
326.0	0.004
326.5	0.003
327.0	0.003
327.5	0.001
328.0	0.001
328.5	0.002
329.0	0.002
329.5	0.003
330.0	0.003
330.5	0.001
331.0	0.002
331.5	0.001
332.0	0.001
332.5	0.002
333.0	0.002
333.5	0.002
334.0	0.001
334.5	0.004
335.0	0.004
335.5	0.004
336.0	0.003
336.5	0.002
337.0	0.002
337.5	0.001
338.0	0.001
338.5	0.000
339.0	0.000
339.5	0.000
340.0	0.000
340.5	0.000
341.0	-0.001
341.5	0.000
342.0	-0.001
342.5	-0.002
343.0	-0.001
343.5	-0.002
344.0	-0.001
344.5	-0.001
345.0	-0.002
345.5	-0.002
346.0	-0.001
346.5	-0.002
347.0	-0.001
347.5	-0.002
348.0	-0.002
348.5	-0.002
349.0	-0.002
349.5	-0.003
350.0	-0.004


TL 2.1 1
2/14/2023 6:48 AM
Wavelength (nm)	10mm Absorbance
//WLCalib: Shift 	0.30333	
//WLCalib: 261S 	0.17000	
//WLCalib: 362S 	-0.17000	
//WLCalib: 484S 	-0.22000	
//WLCalib: 529S 	0.26000	
//WLCalib: 823S 	-0.40000	
//QSpecEnd: 
220.0	0.444
220.5	0.425
221.0	0.402
221.5	0.385
222.0	0.366
222.5	0.348
223.0	0.334
223.5	0.318
224.0	0.301
224.5	0.284
225.0	0.272
225.5	0.263
226.0	0.254
226.5	0.249
227.0	0.244
227.5	0.242
228.0	0.240
228.5	0.239
229.0	0.239
229.5	0.239
230.0	0.240
230.5	0.240
231.0	0.241
231.5	0.243
232.0	0.247
232.5	0.251
233.0	0.255
233.5	0.260
234.0	0.266
234.5	0.273
235.0	0.281
235.5	0.288
236.0	0.297
236.5	0.307
237.0	0.317
237.5	0.330
238.0	0.343
238.5	0.356
239.0	0.369
239.5	0.382
240.0	0.394
240.5	0.407
241.0	0.419
241.5	0.431
242.0	0.442
242.5	0.455
243.0	0.468
243.5	0.481
244.0	0.493
244.5	0.506
245.0	0.520
245.5	0.533
246.0	0.546
246.5	0.559
247.0	0.573
247.5	0.585
248.0	0.597
248.5	0.610
249.0	0.621
249.5	0.630
250.0	0.641
250.5	0.651
251.0	0.663
251.5	0.676
252.0	0.688
252.5	0.697
253.0	0.707
253.5	0.715
254.0	0.724
254.5	0.729
255.0	0.736
255.5	0.742
256.0	0.747
256.5	0.748
257.0	0.748
257.5	0.748
258.0	0.747
258.5	0.747
259.0	0.746
259.5	0.744
260.0	0.742
260.5	0.740
261.0	0.738
261.5	0.734
262.0	0.729
262.5	0.724
263.0	0.719
263.5	0.712
264.0	0.704
264.5	0.698
265.0	0.688
265.5	0.677
266.0	0.665
266.5	0.652
267.0	0.640
267.5	0.628
268.0	0.617
268.5	0.604
269.0	0.591
269.5	0.579
270.0	0.567
270.5	0.554
271.0	0.543
271.5	0.530
272.0	0.517
272.5	0.504
273.0	0.492
273.5	0.480
274.0	0.467
274.5	0.454
275.0	0.442
275.5	0.428
276.0	0.414
276.5	0.399
277.0	0.385
277.5	0.371
278.0	0.358
278.5	0.344
279.0	0.330
279.5	0.318
280.0	0.306
280.5	0.294
281.0	0.282
281.5	0.271
282.0	0.261
282.5	0.251
283.0	0.241
283.5	0.231
284.0	0.223
284.5	0.213
285.0	0.205
285.5	0.197
286.0	0.188
286.5	0.180
287.0	0.170
287.5	0.162
288.0	0.153
288.5	0.145
289.0	0.138
289.5	0.130
290.0	0.122
290.5	0.114
291.0	0.106
291.5	0.099
292.0	0.093
292.5	0.087
293.0	0.082
293.5	0.075
294.0	0.070
294.5	0.064
295.0	0.060
295.5	0.056
296.0	0.053
296.5	0.050
297.0	0.047
297.5	0.045
298.0	0.043
298.5	0.040
299.0	0.037
299.5	0.034
300.0	0.032
300.5	0.029
301.0	0.029
301.5	0.027
302.0	0.026
302.5	0.024
303.0	0.023
303.5	0.022
304.0	0.019
304.5	0.017
305.0	0.015
305.5	0.013
306.0	0.014
306.5	0.015
307.0	0.014
307.5	0.013
308.0	0.013
308.5	0.013
309.0	0.013
309.5	0.014
310.0	0.013
310.5	0.014
311.0	0.014
311.5	0.014
312.0	0.014
312.5	0.015
313.0	0.015
313.5	0.015
314.0	0.014
314.5	0.014
315.0	0.014
315.5	0.014
316.0	0.014
316.5	0.014
317.0	0.014
317.5	0.014
318.0	0.013
318.5	0.012
319.0	0.012
319.5	0.013
320.0	0.013
320.5	0.013
321.0	0.013
321.5	0.013
322.0	0.014
322.5	0.015
323.0	0.014
323.5	0.015
324.0	0.015
324.5	0.014
325.0	0.013
325.5	0.013
326.0	0.013
326.5	0.011
327.0	0.011
327.5	0.010
328.0	0.010
328.5	0.010
329.0	0.010
329.5	0.009
330.0	0.009
330.5	0.008
331.0	0.007
331.5	0.005
332.0	0.003
332.5	0.004
333.0	0.004
333.5	0.004
334.0	0.006
334.5	0.007
335.0	0.005
335.5	0.005
336.0	0.005
336.5	0.003
337.0	0.003
337.5	0.002
338.0	0.002
338.5	0.000
339.0	0.000
339.5	0.001
340.0	0.000
340.5	-0.002
341.0	-0.002
341.5	-0.003
342.0	-0.004
342.5	-0.003
343.0	-0.002
343.5	-0.004
344.0	-0.002
344.5	-0.003
345.0	-0.003
345.5	-0.003
346.0	-0.003
346.5	-0.004
347.0	-0.004
347.5	-0.005
348.0	-0.004
348.5	-0.005
349.0	-0.006
349.5	-0.007
350.0	-0.007


TL 2.1 2
2/14/2023 6:49 AM
Wavelength (nm)	10mm Absorbance
//WLCalib: Shift 	0.30333	
//WLCalib: 261S 	0.17000	
//WLCalib: 362S 	-0.17000	
//WLCalib: 484S 	-0.22000	
//WLCalib: 529S 	0.26000	
//WLCalib: 823S 	-0.40000	
//QSpecEnd: 
220.0	0.414
220.5	0.394
221.0	0.376
221.5	0.360
222.0	0.342
222.5	0.325
223.0	0.310
223.5	0.298
224.0	0.282
224.5	0.267
225.0	0.254
225.5	0.247
226.0	0.239
226.5	0.235
227.0	0.232
227.5	0.229
228.0	0.227
228.5	0.226
229.0	0.226
229.5	0.226
230.0	0.227
230.5	0.227
231.0	0.228
231.5	0.229
232.0	0.233
232.5	0.237
233.0	0.241
233.5	0.245
234.0	0.251
234.5	0.258
235.0	0.265
235.5	0.274
236.0	0.284
236.5	0.292
237.0	0.304
237.5	0.315
238.0	0.329
238.5	0.342
239.0	0.355
239.5	0.369
240.0	0.383
240.5	0.395
241.0	0.406
241.5	0.418
242.0	0.430
242.5	0.444
243.0	0.458
243.5	0.471
244.0	0.485
244.5	0.498
245.0	0.512
245.5	0.524
246.0	0.538
246.5	0.552
247.0	0.565
247.5	0.578
248.0	0.591
248.5	0.604
249.0	0.616
249.5	0.626
250.0	0.636
250.5	0.646
251.0	0.658
251.5	0.671
252.0	0.684
252.5	0.696
253.0	0.707
253.5	0.715
254.0	0.724
254.5	0.731
255.0	0.738
255.5	0.743
256.0	0.748
256.5	0.750
257.0	0.748
257.5	0.748
258.0	0.747
258.5	0.745
259.0	0.744
259.5	0.742
260.0	0.740
260.5	0.737
261.0	0.735
261.5	0.731
262.0	0.726
262.5	0.720
263.0	0.714
263.5	0.706
264.0	0.698
264.5	0.691
265.0	0.682
265.5	0.670
266.0	0.658
266.5	0.646
267.0	0.633
267.5	0.620
268.0	0.606
268.5	0.593
269.0	0.579
269.5	0.568
270.0	0.557
270.5	0.545
271.0	0.532
271.5	0.519
272.0	0.506
272.5	0.494
273.0	0.481
273.5	0.468
274.0	0.455
274.5	0.444
275.0	0.431
275.5	0.417
276.0	0.404
276.5	0.389
277.0	0.375
277.5	0.359
278.0	0.346
278.5	0.333
279.0	0.318
279.5	0.304
280.0	0.291
280.5	0.279
281.0	0.267
281.5	0.255
282.0	0.243
282.5	0.232
283.0	0.221
283.5	0.210
284.0	0.201
284.5	0.192
285.0	0.184
285.5	0.176
286.0	0.167
286.5	0.160
287.0	0.151
287.5	0.142
288.0	0.133
288.5	0.126
289.0	0.119
289.5	0.113
290.0	0.106
290.5	0.098
291.0	0.091
291.5	0.084
292.0	0.077
292.5	0.071
293.0	0.064
293.5	0.058
294.0	0.052
294.5	0.047
295.0	0.042
295.5	0.038
296.0	0.036
296.5	0.032
297.0	0.029
297.5	0.027
298.0	0.026
298.5	0.024
299.0	0.021
299.5	0.019
300.0	0.017
300.5	0.016
301.0	0.015
301.5	0.014
302.0	0.014
302.5	0.014
303.0	0.013
303.5	0.011
304.0	0.009
304.5	0.008
305.0	0.007
305.5	0.005
306.0	0.005
306.5	0.007
307.0	0.006
307.5	0.006
308.0	0.004
308.5	0.005
309.0	0.005
309.5	0.005
310.0	0.005
310.5	0.006
311.0	0.006
311.5	0.007
312.0	0.007
312.5	0.007
313.0	0.009
313.5	0.009
314.0	0.008
314.5	0.008
315.0	0.008
315.5	0.010
316.0	0.009
316.5	0.009
317.0	0.009
317.5	0.009
318.0	0.009
318.5	0.008
319.0	0.009
319.5	0.009
320.0	0.010
320.5	0.010
321.0	0.010
321.5	0.009
322.0	0.010
322.5	0.011
323.0	0.010
323.5	0.010
324.0	0.010
324.5	0.009
325.0	0.009
325.5	0.009
326.0	0.009
326.5	0.007
327.0	0.008
327.5	0.007
328.0	0.006
328.5	0.006
329.0	0.006
329.5	0.006
330.0	0.006
330.5	0.005
331.0	0.004
331.5	0.003
332.0	0.003
332.5	0.004
333.0	0.003
333.5	0.002
334.0	0.004
334.5	0.005
335.0	0.004
335.5	0.004
336.0	0.003
336.5	0.003
337.0	0.003
337.5	0.001
338.0	0.002
338.5	0.002
339.0	0.002
339.5	0.002
340.0	0.000
340.5	0.000
341.0	0.001
341.5	0.001
342.0	0.000
342.5	0.000
343.0	0.000
343.5	-0.001
344.0	0.001
344.5	0.000
345.0	0.000
345.5	0.000
346.0	-0.001
346.5	-0.001
347.0	0.000
347.5	0.000
348.0	-0.001
348.5	-0.002
349.0	-0.003
349.5	-0.003
350.0	-0.003


TL 2.1 3
2/14/2023 6:49 AM
Wavelength (nm)	10mm Absorbance
//WLCalib: Shift 	0.30333	
//WLCalib: 261S 	0.17000	
//WLCalib: 362S 	-0.17000	
//WLCalib: 484S 	-0.22000	
//WLCalib: 529S 	0.26000	
//WLCalib: 823S 	-0.40000	
//QSpecEnd: 
220.0	0.425
220.5	0.407
221.0	0.387
221.5	0.372
222.0	0.356
222.5	0.340
223.0	0.328
223.5	0.314
224.0	0.296
224.5	0.281
225.0	0.267
225.5	0.257
226.0	0.248
226.5	0.242
227.0	0.239
227.5	0.237
228.0	0.235
228.5	0.233
229.0	0.232
229.5	0.231
230.0	0.232
230.5	0.232
231.0	0.232
231.5	0.235
232.0	0.239
232.5	0.243
233.0	0.248
233.5	0.253
234.0	0.259
234.5	0.266
235.0	0.273
235.5	0.281
236.0	0.291
236.5	0.301
237.0	0.312
237.5	0.323
238.0	0.336
238.5	0.348
239.0	0.362
239.5	0.375
240.0	0.388
240.5	0.400
241.0	0.411
241.5	0.424
242.0	0.435
242.5	0.449
243.0	0.462
243.5	0.475
244.0	0.488
244.5	0.502
245.0	0.516
245.5	0.528
246.0	0.542
246.5	0.555
247.0	0.569
247.5	0.581
248.0	0.595
248.5	0.607
249.0	0.619
249.5	0.629
250.0	0.638
250.5	0.650
251.0	0.663
251.5	0.676
252.0	0.689
252.5	0.700
253.0	0.712
253.5	0.722
254.0	0.731
254.5	0.738
255.0	0.745
255.5	0.750
256.0	0.754
256.5	0.756
257.0	0.754
257.5	0.754
258.0	0.753
258.5	0.752
259.0	0.752
259.5	0.749
260.0	0.746
260.5	0.743
261.0	0.740
261.5	0.736
262.0	0.731
262.5	0.726
263.0	0.720
263.5	0.712
264.0	0.703
264.5	0.698
265.0	0.689
265.5	0.676
266.0	0.664
266.5	0.651
267.0	0.638
267.5	0.625
268.0	0.613
268.5	0.601
269.0	0.588
269.5	0.575
270.0	0.562
270.5	0.549
271.0	0.538
271.5	0.527
272.0	0.514
272.5	0.501
273.0	0.490
273.5	0.477
274.0	0.463
274.5	0.452
275.0	0.439
275.5	0.426
276.0	0.412
276.5	0.397
277.0	0.385
277.5	0.370
278.0	0.357
278.5	0.343
279.0	0.327
279.5	0.313
280.0	0.301
280.5	0.288
281.0	0.276
281.5	0.264
282.0	0.252
282.5	0.242
283.0	0.231
283.5	0.221
284.0	0.212
284.5	0.203
285.0	0.195
285.5	0.187
286.0	0.178
286.5	0.170
287.0	0.161
287.5	0.151
288.0	0.143
288.5	0.135
289.0	0.128
289.5	0.122
290.0	0.114
290.5	0.106
291.0	0.098
291.5	0.090
292.0	0.083
292.5	0.077
293.0	0.070
293.5	0.065
294.0	0.059
294.5	0.056
295.0	0.052
295.5	0.048
296.0	0.045
296.5	0.042
297.0	0.039
297.5	0.036
298.0	0.035
298.5	0.032
299.0	0.030
299.5	0.029
300.0	0.027
300.5	0.025
301.0	0.023
301.5	0.022
302.0	0.021
302.5	0.021
303.0	0.020
303.5	0.019
304.0	0.016
304.5	0.015
305.0	0.013
305.5	0.011
306.0	0.012
306.5	0.012
307.0	0.011
307.5	0.010
308.0	0.009
308.5	0.009
309.0	0.008
309.5	0.008
310.0	0.007
310.5	0.007
311.0	0.008
311.5	0.008
312.0	0.008
312.5	0.009
313.0	0.010
313.5	0.010
314.0	0.009
314.5	0.010
315.0	0.009
315.5	0.010
316.0	0.010
316.5	0.010
317.0	0.010
317.5	0.010
318.0	0.008
318.5	0.007
319.0	0.008
319.5	0.008
320.0	0.010
320.5	0.009
321.0	0.008
321.5	0.007
322.0	0.007
322.5	0.010
323.0	0.009
323.5	0.009
324.0	0.009
324.5	0.009
325.0	0.009
325.5	0.008
326.0	0.009
326.5	0.008
327.0	0.008
327.5	0.005
328.0	0.006
328.5	0.007
329.0	0.007
329.5	0.008
330.0	0.006
330.5	0.005
331.0	0.004
331.5	0.002
332.0	0.001
332.5	0.002
333.0	0.002
333.5	0.001
334.0	0.002
334.5	0.003
335.0	0.003
335.5	0.003
336.0	0.002
336.5	0.000
337.0	-0.001
337.5	-0.002
338.0	-0.001
338.5	-0.001
339.0	0.000
339.5	0.000
340.0	0.000
340.5	-0.001
341.0	-0.001
341.5	-0.001
342.0	-0.003
342.5	-0.003
343.0	-0.003
343.5	-0.003
344.0	-0.002
344.5	-0.003
345.0	-0.003
345.5	-0.002
346.0	-0.003
346.5	-0.004
347.0	-0.004
347.5	-0.004
348.0	-0.004
348.5	-0.004
349.0	-0.005
349.5	-0.005
350.0	-0.006


TL 2.2 1
2/14/2023 6:50 AM
Wavelength (nm)	10mm Absorbance
//WLCalib: Shift 	0.30333	
//WLCalib: 261S 	0.17000	
//WLCalib: 362S 	-0.17000	
//WLCalib: 484S 	-0.22000	
//WLCalib: 529S 	0.26000	
//WLCalib: 823S 	-0.40000	
//QSpecEnd: 
220.0	0.485
220.5	0.467
221.0	0.445
221.5	0.428
222.0	0.406
222.5	0.387
223.0	0.369
223.5	0.351
224.0	0.333
224.5	0.315
225.0	0.299
225.5	0.287
226.0	0.277
226.5	0.269
227.0	0.264
227.5	0.259
228.0	0.255
228.5	0.253
229.0	0.251
229.5	0.249
230.0	0.248
230.5	0.247
231.0	0.247
231.5	0.246
232.0	0.247
232.5	0.249
233.0	0.251
233.5	0.254
234.0	0.258
234.5	0.261
235.0	0.267
235.5	0.273
236.0	0.280
236.5	0.287
237.0	0.297
237.5	0.307
238.0	0.319
238.5	0.331
239.0	0.344
239.5	0.356
240.0	0.369
240.5	0.381
241.0	0.392
241.5	0.403
242.0	0.414
242.5	0.427
243.0	0.440
243.5	0.452
244.0	0.464
244.5	0.476
245.0	0.489
245.5	0.500
246.0	0.512
246.5	0.524
247.0	0.537
247.5	0.549
248.0	0.561
248.5	0.572
249.0	0.584
249.5	0.593
250.0	0.603
250.5	0.613
251.0	0.624
251.5	0.637
252.0	0.649
252.5	0.660
253.0	0.673
253.5	0.682
254.0	0.692
254.5	0.699
255.0	0.706
255.5	0.712
256.0	0.719
256.5	0.722
257.0	0.724
257.5	0.727
258.0	0.728
258.5	0.729
259.0	0.729
259.5	0.728
260.0	0.726
260.5	0.724
261.0	0.723
261.5	0.721
262.0	0.718
262.5	0.714
263.0	0.710
263.5	0.703
264.0	0.696
264.5	0.691
265.0	0.682
265.5	0.672
266.0	0.660
266.5	0.649
267.0	0.638
267.5	0.627
268.0	0.615
268.5	0.602
269.0	0.589
269.5	0.578
270.0	0.567
270.5	0.555
271.0	0.543
271.5	0.531
272.0	0.517
272.5	0.504
273.0	0.493
273.5	0.479
274.0	0.466
274.5	0.454
275.0	0.442
275.5	0.428
276.0	0.414
276.5	0.397
277.0	0.382
277.5	0.366
278.0	0.352
278.5	0.336
279.0	0.321
279.5	0.306
280.0	0.293
280.5	0.279
281.0	0.266
281.5	0.253
282.0	0.241
282.5	0.229
283.0	0.218
283.5	0.207
284.0	0.198
284.5	0.189
285.0	0.182
285.5	0.173
286.0	0.164
286.5	0.156
287.0	0.147
287.5	0.139
288.0	0.130
288.5	0.122
289.0	0.114
289.5	0.108
290.0	0.100
290.5	0.093
291.0	0.085
291.5	0.077
292.0	0.070
292.5	0.062
293.0	0.056
293.5	0.050
294.0	0.043
294.5	0.038
295.0	0.034
295.5	0.030
296.0	0.028
296.5	0.025
297.0	0.023
297.5	0.021
298.0	0.019
298.5	0.016
299.0	0.015
299.5	0.014
300.0	0.012
300.5	0.011
301.0	0.011
301.5	0.011
302.0	0.011
302.5	0.011
303.0	0.010
303.5	0.009
304.0	0.008
304.5	0.007
305.0	0.005
305.5	0.005
306.0	0.005
306.5	0.005
307.0	0.004
307.5	0.003
308.0	0.002
308.5	0.003
309.0	0.002
309.5	0.002
310.0	0.001
310.5	0.001
311.0	0.002
311.5	0.001
312.0	0.001
312.5	0.001
313.0	0.001
313.5	0.002
314.0	0.002
314.5	0.003
315.0	0.003
315.5	0.005
316.0	0.004
316.5	0.004
317.0	0.006
317.5	0.005
318.0	0.006
318.5	0.006
319.0	0.008
319.5	0.008
320.0	0.008
320.5	0.007
321.0	0.007
321.5	0.007
322.0	0.006
322.5	0.007
323.0	0.006
323.5	0.007
324.0	0.006
324.5	0.005
325.0	0.006
325.5	0.005
326.0	0.005
326.5	0.003
327.0	0.003
327.5	0.004
328.0	0.004
328.5	0.004
329.0	0.004
329.5	0.004
330.0	0.003
330.5	0.002
331.0	0.001
331.5	0.001
332.0	0.002
332.5	0.002
333.0	0.003
333.5	0.002
334.0	0.003
334.5	0.003
335.0	0.001
335.5	0.002
336.0	0.001
336.5	0.000
337.0	0.000
337.5	0.000
338.0	0.001
338.5	0.001
339.0	0.001
339.5	0.002
340.0	0.000
340.5	-0.001
341.0	-0.001
341.5	-0.001
342.0	-0.001
342.5	0.001
343.0	0.001
343.5	0.002
344.0	0.003
344.5	0.002
345.0	0.002
345.5	0.002
346.0	0.002
346.5	0.002
347.0	0.002
347.5	0.002
348.0	0.002
348.5	0.001
349.0	0.000
349.5	-0.001
350.0	-0.001


TL 2.2 2
2/14/2023 6:51 AM
Wavelength (nm)	10mm Absorbance
//WLCalib: Shift 	0.30333	
//WLCalib: 261S 	0.17000	
//WLCalib: 362S 	-0.17000	
//WLCalib: 484S 	-0.22000	
//WLCalib: 529S 	0.26000	
//WLCalib: 823S 	-0.40000	
//QSpecEnd: 
220.0	0.350
220.5	0.337
221.0	0.321
221.5	0.308
222.0	0.293
222.5	0.281
223.0	0.269
223.5	0.256
224.0	0.242
224.5	0.228
225.0	0.218
225.5	0.211
226.0	0.203
226.5	0.197
227.0	0.194
227.5	0.192
228.0	0.190
228.5	0.189
229.0	0.189
229.5	0.188
230.0	0.188
230.5	0.188
231.0	0.189
231.5	0.191
232.0	0.194
232.5	0.196
233.0	0.199
233.5	0.203
234.0	0.208
234.5	0.214
235.0	0.220
235.5	0.226
236.0	0.234
236.5	0.241
237.0	0.251
237.5	0.261
238.0	0.270
238.5	0.280
239.0	0.292
239.5	0.302
240.0	0.313
240.5	0.324
241.0	0.332
241.5	0.343
242.0	0.353
242.5	0.363
243.0	0.374
243.5	0.384
244.0	0.394
244.5	0.404
245.0	0.414
245.5	0.425
246.0	0.437
246.5	0.448
247.0	0.459
247.5	0.470
248.0	0.480
248.5	0.491
249.0	0.500
249.5	0.507
250.0	0.516
250.5	0.525
251.0	0.535
251.5	0.546
252.0	0.559
252.5	0.570
253.0	0.579
253.5	0.587
254.0	0.594
254.5	0.600
255.0	0.606
255.5	0.611
256.0	0.618
256.5	0.620
257.0	0.621
257.5	0.622
258.0	0.624
258.5	0.625
259.0	0.625
259.5	0.624
260.0	0.623
260.5	0.621
261.0	0.620
261.5	0.619
262.0	0.616
262.5	0.614
263.0	0.610
263.5	0.604
264.0	0.599
264.5	0.596
265.0	0.589
265.5	0.581
266.0	0.571
266.5	0.562
267.0	0.552
267.5	0.542
268.0	0.531
268.5	0.521
269.0	0.510
269.5	0.500
270.0	0.491
270.5	0.480
271.0	0.471
271.5	0.461
272.0	0.448
272.5	0.437
273.0	0.427
273.5	0.415
274.0	0.402
274.5	0.392
275.0	0.381
275.5	0.370
276.0	0.357
276.5	0.342
277.0	0.330
277.5	0.315
278.0	0.302
278.5	0.289
279.0	0.276
279.5	0.264
280.0	0.253
280.5	0.241
281.0	0.230
281.5	0.220
282.0	0.209
282.5	0.198
283.0	0.189
283.5	0.179
284.0	0.172
284.5	0.163
285.0	0.157
285.5	0.150
286.0	0.142
286.5	0.135
287.0	0.126
287.5	0.117
288.0	0.111
288.5	0.104
289.0	0.098
289.5	0.092
290.0	0.086
290.5	0.080
291.0	0.073
291.5	0.066
292.0	0.060
292.5	0.054
293.0	0.049
293.5	0.042
294.0	0.037
294.5	0.032
295.0	0.029
295.5	0.026
296.0	0.023
296.5	0.020
297.0	0.018
297.5	0.016
298.0	0.014
298.5	0.013
299.0	0.011
299.5	0.009
300.0	0.008
300.5	0.007
301.0	0.006
301.5	0.007
302.0	0.007
302.5	0.008
303.0	0.007
303.5	0.006
304.0	0.003
304.5	0.002
305.0	0.000
305.5	0.000
306.0	0.000
306.5	0.000
307.0	0.000
307.5	-0.001
308.0	-0.002
308.5	-0.001
309.0	-0.002
309.5	-0.002
310.0	-0.002
310.5	-0.003
311.0	-0.002
311.5	-0.001
312.0	-0.001
312.5	0.000
313.0	0.001
313.5	0.000
314.0	-0.001
314.5	0.000
315.0	0.000
315.5	0.002
316.0	0.003
316.5	0.003
317.0	0.004
317.5	0.004
318.0	0.004
318.5	0.004
319.0	0.004
319.5	0.005
320.0	0.006
320.5	0.004
321.0	0.006
321.5	0.005
322.0	0.006
322.5	0.007
323.0	0.005
323.5	0.005
324.0	0.004
324.5	0.003
325.0	0.003
325.5	0.002
326.0	0.002
326.5	0.001
327.0	0.002
327.5	0.001
328.0	0.001
328.5	0.001
329.0	0.001
329.5	0.001
330.0	-0.001
330.5	-0.001
331.0	0.000
331.5	-0.002
332.0	-0.001
332.5	-0.001
333.0	-0.001
333.5	-0.001
334.0	0.001
334.5	0.002
335.0	0.001
335.5	0.002
336.0	0.002
336.5	0.001
337.0	0.002
337.5	0.000
338.0	0.002
338.5	0.000
339.0	0.001
339.5	0.001
340.0	0.000
340.5	0.000
341.0	-0.001
341.5	-0.001
342.0	-0.003
342.5	-0.003
343.0	-0.004
343.5	-0.005
344.0	-0.004
344.5	-0.006
345.0	-0.005
345.5	-0.005
346.0	-0.005
346.5	-0.005
347.0	-0.004
347.5	-0.005
348.0	-0.005
348.5	-0.005
349.0	-0.006
349.5	-0.006
350.0	-0.007


TL 2.2 3
2/14/2023 6:51 AM
Wavelength (nm)	10mm Absorbance
//WLCalib: Shift 	0.30333	
//WLCalib: 261S 	0.17000	
//WLCalib: 362S 	-0.17000	
//WLCalib: 484S 	-0.22000	
//WLCalib: 529S 	0.26000	
//WLCalib: 823S 	-0.40000	
//QSpecEnd: 
220.0	0.437
220.5	0.421
221.0	0.405
221.5	0.390
222.0	0.372
222.5	0.355
223.0	0.341
223.5	0.326
224.0	0.309
224.5	0.294
225.0	0.279
225.5	0.268
226.0	0.259
226.5	0.252
227.0	0.247
227.5	0.243
228.0	0.240
228.5	0.238
229.0	0.237
229.5	0.236
230.0	0.235
230.5	0.234
231.0	0.235
231.5	0.236
232.0	0.237
232.5	0.239
233.0	0.241
233.5	0.245
234.0	0.248
234.5	0.252
235.0	0.259
235.5	0.266
236.0	0.273
236.5	0.279
237.0	0.288
237.5	0.298
238.0	0.311
238.5	0.321
239.0	0.333
239.5	0.345
240.0	0.356
240.5	0.368
241.0	0.377
241.5	0.388
242.0	0.399
242.5	0.410
243.0	0.422
243.5	0.433
244.0	0.443
244.5	0.455
245.0	0.466
245.5	0.476
246.0	0.488
246.5	0.498
247.0	0.510
247.5	0.521
248.0	0.533
248.5	0.545
249.0	0.554
249.5	0.563
250.0	0.571
250.5	0.581
251.0	0.591
251.5	0.604
252.0	0.616
252.5	0.627
253.0	0.638
253.5	0.647
254.0	0.655
254.5	0.663
255.0	0.669
255.5	0.674
256.0	0.679
256.5	0.682
257.0	0.682
257.5	0.685
258.0	0.685
258.5	0.686
259.0	0.687
259.5	0.686
260.0	0.684
260.5	0.684
261.0	0.682
261.5	0.681
262.0	0.678
262.5	0.675
263.0	0.671
263.5	0.665
264.0	0.659
264.5	0.656
265.0	0.649
265.5	0.640
266.0	0.630
266.5	0.620
267.0	0.610
267.5	0.600
268.0	0.588
268.5	0.576
269.0	0.566
269.5	0.554
270.0	0.543
270.5	0.531
271.0	0.520
271.5	0.509
272.0	0.496
272.5	0.485
273.0	0.473
273.5	0.460
274.0	0.447
274.5	0.435
275.0	0.424
275.5	0.411
276.0	0.397
276.5	0.381
277.0	0.368
277.5	0.353
278.0	0.339
278.5	0.324
279.0	0.310
279.5	0.296
280.0	0.283
280.5	0.272
281.0	0.261
281.5	0.250
282.0	0.239
282.5	0.228
283.0	0.217
283.5	0.206
284.0	0.197
284.5	0.188
285.0	0.180
285.5	0.173
286.0	0.165
286.5	0.158
287.0	0.150
287.5	0.142
288.0	0.134
288.5	0.126
289.0	0.118
289.5	0.113
290.0	0.106
290.5	0.099
291.0	0.092
291.5	0.086
292.0	0.080
292.5	0.075
293.0	0.069
293.5	0.063
294.0	0.057
294.5	0.051
295.0	0.046
295.5	0.043
296.0	0.041
296.5	0.039
297.0	0.037
297.5	0.034
298.0	0.032
298.5	0.030
299.0	0.028
299.5	0.027
300.0	0.025
300.5	0.023
301.0	0.023
301.5	0.023
302.0	0.024
302.5	0.024
303.0	0.023
303.5	0.022
304.0	0.019
304.5	0.017
305.0	0.015
305.5	0.015
306.0	0.015
306.5	0.015
307.0	0.013
307.5	0.011
308.0	0.011
308.5	0.011
309.0	0.010
309.5	0.008
310.0	0.008
310.5	0.009
311.0	0.009
311.5	0.008
312.0	0.009
312.5	0.010
313.0	0.010
313.5	0.010
314.0	0.009
314.5	0.009
315.0	0.010
315.5	0.011
316.0	0.011
316.5	0.011
317.0	0.012
317.5	0.012
318.0	0.011
318.5	0.011
319.0	0.011
319.5	0.011
320.0	0.011
320.5	0.011
321.0	0.011
321.5	0.010
322.0	0.011
322.5	0.013
323.0	0.012
323.5	0.012
324.0	0.012
324.5	0.010
325.0	0.010
325.5	0.009
326.0	0.009
326.5	0.008
327.0	0.008
327.5	0.006
328.0	0.004
328.5	0.005
329.0	0.004
329.5	0.004
330.0	0.003
330.5	0.003
331.0	0.003
331.5	0.001
332.0	0.002
332.5	0.003
333.0	0.004
333.5	0.004
334.0	0.004
334.5	0.005
335.0	0.004
335.5	0.006
336.0	0.005
336.5	0.004
337.0	0.005
337.5	0.003
338.0	0.002
338.5	0.001
339.0	0.002
339.5	0.001
340.0	0.000
340.5	-0.002
341.0	-0.002
341.5	-0.001
342.0	-0.003
342.5	-0.003
343.0	-0.002
343.5	-0.002
344.0	-0.001
344.5	-0.002
345.0	-0.002
345.5	-0.002
346.0	-0.001
346.5	-0.001
347.0	-0.001
347.5	-0.002
348.0	-0.002
348.5	-0.001
349.0	-0.001
349.5	-0.002
350.0	-0.001


KL 1.1 (2) 1
2/14/2023 6:52 AM
Wavelength (nm)	10mm Absorbance
//WLCalib: Shift 	0.30333	
//WLCalib: 261S 	0.17000	
//WLCalib: 362S 	-0.17000	
//WLCalib: 484S 	-0.22000	
//WLCalib: 529S 	0.26000	
//WLCalib: 823S 	-0.40000	
//QSpecEnd: 
220.0	0.433
220.5	0.413
221.0	0.392
221.5	0.376
222.0	0.359
222.5	0.341
223.0	0.327
223.5	0.313
224.0	0.296
224.5	0.281
225.0	0.270
225.5	0.261
226.0	0.251
226.5	0.247
227.0	0.243
227.5	0.240
228.0	0.238
228.5	0.237
229.0	0.236
229.5	0.236
230.0	0.237
230.5	0.237
231.0	0.238
231.5	0.239
232.0	0.242
232.5	0.245
233.0	0.249
233.5	0.254
234.0	0.258
234.5	0.264
235.0	0.271
235.5	0.280
236.0	0.288
236.5	0.297
237.0	0.308
237.5	0.319
238.0	0.332
238.5	0.345
239.0	0.358
239.5	0.370
240.0	0.384
240.5	0.397
241.0	0.409
241.5	0.421
242.0	0.434
242.5	0.448
243.0	0.461
243.5	0.474
244.0	0.488
244.5	0.500
245.0	0.513
245.5	0.525
246.0	0.538
246.5	0.552
247.0	0.566
247.5	0.579
248.0	0.591
248.5	0.603
249.0	0.614
249.5	0.624
250.0	0.632
250.5	0.642
251.0	0.653
251.5	0.666
252.0	0.678
252.5	0.691
253.0	0.703
253.5	0.711
254.0	0.719
254.5	0.725
255.0	0.730
255.5	0.733
256.0	0.737
256.5	0.739
257.0	0.738
257.5	0.738
258.0	0.737
258.5	0.737
259.0	0.736
259.5	0.734
260.0	0.730
260.5	0.727
261.0	0.724
261.5	0.720
262.0	0.716
262.5	0.712
263.0	0.706
263.5	0.699
264.0	0.691
264.5	0.684
265.0	0.674
265.5	0.664
266.0	0.652
266.5	0.638
267.0	0.625
267.5	0.613
268.0	0.600
268.5	0.587
269.0	0.576
269.5	0.565
270.0	0.555
270.5	0.542
271.0	0.531
271.5	0.520
272.0	0.507
272.5	0.494
273.0	0.484
273.5	0.471
274.0	0.459
274.5	0.448
275.0	0.438
275.5	0.426
276.0	0.413
276.5	0.399
277.0	0.385
277.5	0.370
278.0	0.357
278.5	0.344
279.0	0.329
279.5	0.318
280.0	0.306
280.5	0.294
281.0	0.283
281.5	0.272
282.0	0.262
282.5	0.251
283.0	0.239
283.5	0.228
284.0	0.220
284.5	0.212
285.0	0.204
285.5	0.197
286.0	0.188
286.5	0.180
287.0	0.171
287.5	0.162
288.0	0.153
288.5	0.145
289.0	0.138
289.5	0.132
290.0	0.124
290.5	0.118
291.0	0.111
291.5	0.103
292.0	0.096
292.5	0.091
293.0	0.085
293.5	0.079
294.0	0.073
294.5	0.068
295.0	0.065
295.5	0.061
296.0	0.059
296.5	0.056
297.0	0.052
297.5	0.051
298.0	0.048
298.5	0.046
299.0	0.044
299.5	0.042
300.0	0.039
300.5	0.037
301.0	0.035
301.5	0.035
302.0	0.034
302.5	0.032
303.0	0.030
303.5	0.027
304.0	0.025
304.5	0.022
305.0	0.019
305.5	0.018
306.0	0.018
306.5	0.018
307.0	0.017
307.5	0.015
308.0	0.014
308.5	0.013
309.0	0.012
309.5	0.012
310.0	0.012
310.5	0.012
311.0	0.012
311.5	0.012
312.0	0.013
312.5	0.013
313.0	0.015
313.5	0.014
314.0	0.014
314.5	0.014
315.0	0.014
315.5	0.015
316.0	0.015
316.5	0.015
317.0	0.016
317.5	0.016
318.0	0.015
318.5	0.015
319.0	0.015
319.5	0.016
320.0	0.016
320.5	0.014
321.0	0.014
321.5	0.014
322.0	0.013
322.5	0.014
323.0	0.013
323.5	0.014
324.0	0.014
324.5	0.014
325.0	0.013
325.5	0.013
326.0	0.012
326.5	0.011
327.0	0.011
327.5	0.009
328.0	0.008
328.5	0.008
329.0	0.007
329.5	0.009
330.0	0.008
330.5	0.007
331.0	0.007
331.5	0.006
332.0	0.004
332.5	0.004
333.0	0.002
333.5	0.003
334.0	0.004
334.5	0.004
335.0	0.005
335.5	0.006
336.0	0.006
336.5	0.006
337.0	0.004
337.5	0.003
338.0	0.003
338.5	0.000
339.0	0.001
339.5	0.000
340.0	0.000
340.5	0.000
341.0	0.000
341.5	0.000
342.0	0.000
342.5	-0.001
343.0	-0.001
343.5	-0.002
344.0	-0.002
344.5	-0.003
345.0	-0.003
345.5	-0.003
346.0	-0.002
346.5	-0.003
347.0	-0.002
347.5	-0.003
348.0	-0.003
348.5	-0.003
349.0	-0.003
349.5	-0.004
350.0	-0.004


KL 1.1 (2) 2
2/14/2023 6:53 AM
Wavelength (nm)	10mm Absorbance
//WLCalib: Shift 	0.30333	
//WLCalib: 261S 	0.17000	
//WLCalib: 362S 	-0.17000	
//WLCalib: 484S 	-0.22000	
//WLCalib: 529S 	0.26000	
//WLCalib: 823S 	-0.40000	
//QSpecEnd: 
220.0	0.427
220.5	0.408
221.0	0.388
221.5	0.373
222.0	0.354
222.5	0.337
223.0	0.320
223.5	0.304
224.0	0.287
224.5	0.273
225.0	0.261
225.5	0.252
226.0	0.243
226.5	0.238
227.0	0.234
227.5	0.232
228.0	0.231
228.5	0.230
229.0	0.229
229.5	0.229
230.0	0.229
230.5	0.231
231.0	0.233
231.5	0.235
232.0	0.239
232.5	0.243
233.0	0.248
233.5	0.254
234.0	0.260
234.5	0.266
235.0	0.274
235.5	0.283
236.0	0.292
236.5	0.301
237.0	0.312
237.5	0.323
238.0	0.336
238.5	0.349
239.0	0.362
239.5	0.375
240.0	0.387
240.5	0.400
241.0	0.412
241.5	0.423
242.0	0.436
242.5	0.449
243.0	0.462
243.5	0.475
244.0	0.487
244.5	0.501
245.0	0.515
245.5	0.527
246.0	0.540
246.5	0.554
247.0	0.568
247.5	0.581
248.0	0.594
248.5	0.606
249.0	0.617
249.5	0.627
250.0	0.637
250.5	0.648
251.0	0.660
251.5	0.673
252.0	0.685
252.5	0.696
253.0	0.708
253.5	0.716
254.0	0.723
254.5	0.729
255.0	0.734
255.5	0.739
256.0	0.743
256.5	0.744
257.0	0.742
257.5	0.741
258.0	0.740
258.5	0.739
259.0	0.738
259.5	0.736
260.0	0.733
260.5	0.730
261.0	0.727
261.5	0.723
262.0	0.719
262.5	0.714
263.0	0.708
263.5	0.701
264.0	0.693
264.5	0.687
265.0	0.679
265.5	0.667
266.0	0.655
266.5	0.642
267.0	0.631
267.5	0.619
268.0	0.606
268.5	0.592
269.0	0.580
269.5	0.569
270.0	0.558
270.5	0.545
271.0	0.534
271.5	0.523
272.0	0.509
272.5	0.497
273.0	0.485
273.5	0.472
274.0	0.460
274.5	0.448
275.0	0.436
275.5	0.423
276.0	0.411
276.5	0.396
277.0	0.383
277.5	0.368
278.0	0.355
278.5	0.341
279.0	0.326
279.5	0.313
280.0	0.302
280.5	0.290
281.0	0.279
281.5	0.268
282.0	0.258
282.5	0.247
283.0	0.237
283.5	0.227
284.0	0.218
284.5	0.209
285.0	0.202
285.5	0.195
286.0	0.186
286.5	0.178
287.0	0.170
287.5	0.161
288.0	0.152
288.5	0.144
289.0	0.138
289.5	0.131
290.0	0.124
290.5	0.116
291.0	0.109
291.5	0.101
292.0	0.094
292.5	0.088
293.0	0.081
293.5	0.075
294.0	0.069
294.5	0.064
295.0	0.059
295.5	0.056
296.0	0.052
296.5	0.049
297.0	0.046
297.5	0.044
298.0	0.041
298.5	0.039
299.0	0.038
299.5	0.036
300.0	0.033
300.5	0.031
301.0	0.030
301.5	0.029
302.0	0.028
302.5	0.027
303.0	0.027
303.5	0.025
304.0	0.023
304.5	0.021
305.0	0.019
305.5	0.018
306.0	0.017
306.5	0.017
307.0	0.015
307.5	0.014
308.0	0.014
308.5	0.013
309.0	0.012
309.5	0.012
310.0	0.012
310.5	0.012
311.0	0.012
311.5	0.011
312.0	0.011
312.5	0.011
313.0	0.012
313.5	0.012
314.0	0.012
314.5	0.012
315.0	0.012
315.5	0.013
316.0	0.012
316.5	0.013
317.0	0.014
317.5	0.013
318.0	0.012
318.5	0.012
319.0	0.014
319.5	0.014
320.0	0.015
320.5	0.014
321.0	0.014
321.5	0.013
322.0	0.013
322.5	0.014
323.0	0.013
323.5	0.013
324.0	0.013
324.5	0.013
325.0	0.013
325.5	0.013
326.0	0.012
326.5	0.011
327.0	0.010
327.5	0.009
328.0	0.008
328.5	0.008
329.0	0.008
329.5	0.008
330.0	0.007
330.5	0.007
331.0	0.006
331.5	0.004
332.0	0.003
332.5	0.003
333.0	0.002
333.5	0.002
334.0	0.002
334.5	0.004
335.0	0.003
335.5	0.004
336.0	0.004
336.5	0.003
337.0	0.003
337.5	0.002
338.0	0.002
338.5	0.000
339.0	0.001
339.5	0.001
340.0	0.000
340.5	0.001
341.0	0.000
341.5	-0.001
342.0	-0.002
342.5	-0.003
343.0	-0.003
343.5	-0.004
344.0	-0.003
344.5	-0.003
345.0	-0.003
345.5	-0.003
346.0	-0.002
346.5	-0.001
347.0	-0.001
347.5	-0.002
348.0	-0.003
348.5	-0.003
349.0	-0.002
349.5	-0.002
350.0	-0.002


KL 1.1 (2) 3
2/14/2023 6:53 AM
Wavelength (nm)	10mm Absorbance
//WLCalib: Shift 	0.30333	
//WLCalib: 261S 	0.17000	
//WLCalib: 362S 	-0.17000	
//WLCalib: 484S 	-0.22000	
//WLCalib: 529S 	0.26000	
//WLCalib: 823S 	-0.40000	
//QSpecEnd: 
220.0	0.465
220.5	0.443
221.0	0.421
221.5	0.402
222.0	0.382
222.5	0.362
223.0	0.345
223.5	0.327
224.0	0.307
224.5	0.289
225.0	0.274
225.5	0.263
226.0	0.254
226.5	0.248
227.0	0.244
227.5	0.241
228.0	0.240
228.5	0.238
229.0	0.238
229.5	0.237
230.0	0.237
230.5	0.237
231.0	0.238
231.5	0.241
232.0	0.244
232.5	0.247
233.0	0.252
233.5	0.257
234.0	0.262
234.5	0.269
235.0	0.277
235.5	0.285
236.0	0.294
236.5	0.303
237.0	0.313
237.5	0.323
238.0	0.336
238.5	0.347
239.0	0.360
239.5	0.374
240.0	0.386
240.5	0.399
241.0	0.410
241.5	0.421
242.0	0.433
242.5	0.446
243.0	0.458
243.5	0.471
244.0	0.484
244.5	0.497
245.0	0.511
245.5	0.525
246.0	0.538
246.5	0.551
247.0	0.565
247.5	0.578
248.0	0.591
248.5	0.603
249.0	0.615
249.5	0.624
250.0	0.634
250.5	0.645
251.0	0.656
251.5	0.668
252.0	0.682
252.5	0.693
253.0	0.705
253.5	0.714
254.0	0.722
254.5	0.729
255.0	0.735
255.5	0.740
256.0	0.744
256.5	0.745
257.0	0.742
257.5	0.742
258.0	0.740
258.5	0.739
259.0	0.738
259.5	0.735
260.0	0.732
260.5	0.728
261.0	0.724
261.5	0.721
262.0	0.716
262.5	0.710
263.0	0.704
263.5	0.697
264.0	0.689
264.5	0.685
265.0	0.675
265.5	0.664
266.0	0.652
266.5	0.639
267.0	0.629
267.5	0.617
268.0	0.606
268.5	0.593
269.0	0.581
269.5	0.569
270.0	0.557
270.5	0.545
271.0	0.534
271.5	0.522
272.0	0.507
272.5	0.494
273.0	0.484
273.5	0.471
274.0	0.459
274.5	0.447
275.0	0.435
275.5	0.421
276.0	0.409
276.5	0.394
277.0	0.380
277.5	0.366
278.0	0.353
278.5	0.339
279.0	0.325
279.5	0.312
280.0	0.300
280.5	0.288
281.0	0.277
281.5	0.266
282.0	0.256
282.5	0.245
283.0	0.234
283.5	0.224
284.0	0.215
284.5	0.206
285.0	0.198
285.5	0.190
286.0	0.182
286.5	0.173
287.0	0.164
287.5	0.156
288.0	0.147
288.5	0.140
289.0	0.132
289.5	0.125
290.0	0.118
290.5	0.110
291.0	0.103
291.5	0.096
292.0	0.088
292.5	0.082
293.0	0.075
293.5	0.069
294.0	0.064
294.5	0.060
295.0	0.056
295.5	0.052
296.0	0.048
296.5	0.044
297.0	0.041
297.5	0.039
298.0	0.038
298.5	0.035
299.0	0.033
299.5	0.031
300.0	0.030
300.5	0.028
301.0	0.027
301.5	0.027
302.0	0.025
302.5	0.023
303.0	0.022
303.5	0.020
304.0	0.018
304.5	0.018
305.0	0.016
305.5	0.014
306.0	0.012
306.5	0.012
307.0	0.010
307.5	0.008
308.0	0.007
308.5	0.007
309.0	0.005
309.5	0.005
310.0	0.005
310.5	0.005
311.0	0.006
311.5	0.006
312.0	0.005
312.5	0.006
313.0	0.006
313.5	0.007
314.0	0.007
314.5	0.007
315.0	0.008
315.5	0.009
316.0	0.009
316.5	0.009
317.0	0.010
317.5	0.009
318.0	0.009
318.5	0.009
319.0	0.009
319.5	0.010
320.0	0.010
320.5	0.009
321.0	0.008
321.5	0.007
322.0	0.006
322.5	0.007
323.0	0.007
323.5	0.007
324.0	0.007
324.5	0.006
325.0	0.006
325.5	0.005
326.0	0.005
326.5	0.004
327.0	0.005
327.5	0.004
328.0	0.003
328.5	0.004
329.0	0.004
329.5	0.005
330.0	0.004
330.5	0.003
331.0	0.002
331.5	0.000
332.0	0.000
332.5	-0.001
333.0	0.000
333.5	0.000
334.0	0.001
334.5	0.001
335.0	0.000
335.5	0.001
336.0	0.000
336.5	-0.001
337.0	-0.001
337.5	-0.001
338.0	0.000
338.5	-0.001
339.0	0.000
339.5	0.000
340.0	0.000
340.5	-0.001
341.0	-0.002
341.5	-0.004
342.0	-0.004
342.5	-0.004
343.0	-0.004
343.5	-0.005
344.0	-0.005
344.5	-0.006
345.0	-0.006
345.5	-0.006
346.0	-0.006
346.5	-0.006
347.0	-0.005
347.5	-0.006
348.0	-0.006
348.5	-0.005
349.0	-0.006
349.5	-0.007
350.0	-0.007

